;Scopy version,438f138
;Exported on,Wednesday April 02/04/2025
;Device,M2K
;Nr of samples,256
;Sample rate,0
;Tool,Spectrum Analyzer
;Additional Information,Sample,Hamming,1,Sample,Hamming,1,
Sample,Frequency(Hz),Amplitude CH1(dBV),Amplitude CH2(dBV)
0,0,-7.44124,-19.0164
1,1.5625,-11.7685,-26.3596
2,3.125,-19.1485,-64.7588
3,4.6875,-25.6827,-59.6093
4,6.25,-25.2585,-57.178
5,7.8125,-22.4935,-58.3408
6,9.375,-31.4435,-66.2773
7,10.9375,-35.2513,-65.8108
8,12.5,-31.974,-56.5101
9,14.0625,-27.4423,-54.3201
10,15.625,-35.3651,-61.0418
11,17.1875,-40.2776,-63.6834
12,18.75,-35.9119,-61.0661
13,20.3125,-33.0077,-55.9495
14,21.875,-33.8989,-60.1003
15,23.4375,-46.0529,-58.9685
16,25,-52.0964,-61.6626
17,26.5625,-46.293,-53.4134
18,28.125,-44.2304,-56.6998
19,29.6875,-38.0367,-58.5525
20,31.25,-36.9028,-57.5642
21,32.8125,-39.0844,-59.2707
22,34.375,-43.8092,-56.1369
23,35.9375,-49.2034,-58.7037
24,37.5,-47.7465,-61.5097
25,39.0625,-47.4574,-68.2899
26,40.625,-44.1853,-59.7228
27,42.1875,-47.6387,-62.8291
28,43.75,-41.7739,-69.5268
29,45.3125,-46.9662,-76.1578
30,46.875,-43.4605,-67.7231
31,48.4375,-41.2836,-58.4171
32,50,-42.4448,-55.3403
33,51.5625,-46.2986,-56.7162
34,53.125,-48.8827,-61.798
35,54.6875,-51.8823,-56.1724
36,56.25,-43.3606,-56.9642
37,57.8125,-30.7117,-64.6534
38,59.375,-14.5388,-49.8322
39,60.9375,-15.8175,-50.3125
40,62.5,-36.6033,-60.3844
41,64.0625,-54.7678,-66.6836
42,65.625,-48.3934,-58.8333
43,67.1875,-57.0563,-60.2391
44,68.75,-56.9839,-62.217
45,70.3125,-55.6516,-60.1717
46,71.875,-53.0216,-63.2153
47,73.4375,-45.1333,-64.5335
48,75,-23.8315,-62.1047
49,76.5625,-17.0326,-60.837
50,78.125,-25.4033,-58.9757
51,79.6875,-49.8963,-57.742
52,81.25,-39.4978,-59.7269
53,82.8125,-46.3767,-62.1051
54,84.375,-52.1444,-57.2045
55,85.9375,-59.0878,-59.2537
56,87.5,-55.3251,-61.9438
57,89.0625,-58.623,-57.156
58,90.625,-76.1982,-59.3865
59,92.1875,-57.0013,-67.3868
60,93.75,-56.2977,-64.9958
61,95.3125,-69.7332,-61.3775
62,96.875,-50.1899,-59.8841
63,98.4375,-54.4597,-67.5216
64,100,-33.8976,-57.5563
65,101.563,-19.954,-57.7801
66,103.125,-21.9129,-62.9993
67,104.688,-42.4918,-75.2301
68,106.25,-66.0243,-58.0192
69,107.813,-53.1526,-56.5278
70,109.375,-54.8439,-59.8275
71,110.938,-52.0352,-66.4169
72,112.5,-50.6283,-67.6407
73,114.063,-50.0262,-60.9914
74,115.625,-52.0184,-64.5315
75,117.188,-53.1336,-57.3588
76,118.75,-27.6522,-58.2664
77,120.313,-23.2527,-50.6188
78,121.875,-33.6921,-57.8529
79,123.438,-64.5508,-61.3955
80,125,-48.5834,-69.288
81,126.563,-44.5515,-62.9168
82,128.125,-48.543,-63.4641
83,129.688,-54.5157,-63.4488
84,131.25,-68.7643,-58.2027
85,132.813,-62.5178,-62.0771
86,134.375,-70.9382,-69.7646
87,135.938,-56.4336,-57.5079
88,137.5,-59.3455,-59.514
89,139.063,-42.4001,-71.8048
90,140.625,-35.3268,-66.1482
91,142.188,-42.5376,-60.9195
92,143.75,-62.6783,-65.4249
93,145.313,-90.3878,-57.5808
94,146.875,-58.1197,-55.7399
95,148.438,-59.5571,-59.0405
96,150,-60.3359,-56.3323
97,151.563,-41.48,-57.0629
98,153.125,-33.3438,-61.3509
99,154.688,-33.619,-58.1915
100,156.25,-51.2994,-56.8561
101,157.813,-59.0308,-60.9148
102,159.375,-53.0411,-61.9941
103,160.938,-53.9125,-67.5922
104,162.5,-58.9104,-57.1204
105,164.063,-54.6155,-59.528
106,165.625,-54.1441,-65.1258
107,167.188,-45.9319,-71.2066
108,168.75,-51.5688,-58.6871
109,170.313,-71.0031,-58.6946
110,171.875,-64.8234,-61.7111
111,173.438,-67.7195,-55.0619
112,175,-69.458,-53.9377
113,176.563,-89.974,-56.2489
114,178.125,-65.5587,-70.6223
115,179.688,-61.805,-58.5316
116,181.25,-70.9319,-61.1818
117,182.813,-49.9509,-59.9955
118,184.375,-42.7919,-58.8778
119,185.938,-47.4096,-70.947
120,187.5,-52.125,-66.4215
121,189.063,-45.2804,-65.9802
122,190.625,-48.3965,-61.6518
123,192.188,-57.1697,-60.5579
124,193.75,-52.0789,-58.2663
125,195.313,-43.3115,-59.9612
126,196.875,-47.6789,-66.9208
127,198.438,-42.5326,-75.8462
128,200,-25.3489,-73.6142
129,201.563,-25.6551,-66.8836
130,203.125,-27.8184,-65.7598
131,204.688,-21.1334,-72.7973
132,206.25,-27.7505,-58.1769
133,207.813,-59.1023,-60.9851
134,209.375,-52.5474,-66.6594
135,210.938,-66.4526,-55.7325
136,212.5,-50.1572,-56.4203
137,214.063,-58.864,-57.6016
138,215.625,-53.4937,-56.6016
139,217.188,-55.4225,-60.4435
140,218.75,-64.9144,-62.9634
141,220.313,-60.5514,-70.1204
142,221.875,-53.787,-69.8395
143,223.438,-56.1706,-60.8085
144,225,-50.6164,-59.1972
145,226.563,-59.4406,-63.1442
146,228.125,-28.7146,-61.0047
147,229.688,-22.7582,-69.6083
148,231.25,-32.0152,-60.8855
149,232.813,-62.6007,-57.4952
150,234.375,-63.1939,-62.1646
151,235.938,-70.9641,-67.4677
152,237.5,-62.3049,-58.0896
153,239.063,-36.7676,-67.7781
154,240.625,-24.8455,-68.2844
155,242.188,-25.9607,-61.7692
156,243.75,-41.1109,-55.8305
157,245.313,-58.2758,-57.8237
158,246.875,-53.6449,-63.26
159,248.438,-58.5129,-57.5711
160,250,-58.2779,-65.0481
161,251.563,-71.2609,-66.6929
162,253.125,-68.6186,-56.7408
163,254.688,-62.4738,-54.1272
164,256.25,-55.172,-58.3888
165,257.813,-55.3126,-79.2814
166,259.375,-64.2703,-56.6019
167,260.938,-48.6847,-58.2258
168,262.5,-46.9962,-66.1461
169,264.063,-57.2663,-64.1994
170,265.625,-61.9296,-64.2458
171,267.188,-60.6322,-56.4237
172,268.75,-52.669,-53.6779
173,270.313,-53.2122,-62.3129
174,271.875,-68.2422,-65.5648
175,273.438,-62.1253,-65.0213
176,275,-71.2159,-66.0404
177,276.563,-63.3305,-63.3951
178,278.125,-60.9315,-58.911
179,279.688,-66.3167,-57.0367
180,281.25,-55.3403,-60.2855
181,282.813,-64.1587,-60.8177
182,284.375,-76.4058,-56.6321
183,285.938,-41.2906,-58.5046
184,287.5,-35.1761,-55.531
185,289.063,-46.4253,-65.1696
186,290.625,-55.4763,-63.0737
187,292.188,-54.9008,-72.9761
188,293.75,-56.9846,-71.7161
189,295.313,-67.0175,-65.7411
190,296.875,-58.6138,-61.4106
191,298.438,-56.9537,-55.5743
192,300,-50.8884,-55.3838
193,301.563,-55.2885,-64.4052
194,303.125,-62.4724,-61.7609
195,304.688,-49.4072,-56.1366
196,306.25,-31.1821,-60.4699
197,307.813,-29.7276,-55.1639
198,309.375,-44.1814,-56.6477
199,310.938,-55.7545,-55.4682
200,312.5,-55.7672,-55.2131
201,314.063,-57.129,-58.7354
202,315.625,-45.5208,-62.3135
203,317.188,-45.5694,-73.8537
204,318.75,-52.9321,-60.3434
205,320.313,-53.318,-58.4729
206,321.875,-65.1733,-73.1598
207,323.438,-64.3272,-72.409
208,325,-53.3963,-62.8051
209,326.563,-54.7822,-62.7948
210,328.125,-45.9447,-66.2744
211,329.688,-34.4468,-56.4461
212,331.25,-38.9802,-54.3584
213,332.813,-59.6243,-64.8076
214,334.375,-52.7642,-60.9617
215,335.938,-52.7959,-62.6461
216,337.5,-39.1263,-56.8045
217,339.063,-37.285,-60.6894
218,340.625,-43.1564,-59.6799
219,342.188,-54.8889,-57.394
220,343.75,-54.9818,-64.7138
221,345.313,-58.7526,-59.7192
222,346.875,-56.599,-85.1332
223,348.438,-58.957,-62.0647
224,350,-61.6875,-59.8362
225,351.563,-68.1004,-73.1103
226,353.125,-54.736,-62.0629
227,354.688,-52.0158,-61.0829
228,356.25,-56.7688,-70.9462
229,357.813,-52.3755,-60.0864
230,359.375,-46.1589,-55.8478
231,360.938,-51.8063,-54.3247
232,362.5,-56.9103,-62.1208
233,364.063,-65.9656,-63.2097
234,365.625,-58.8017,-72.7288
235,367.188,-55.6371,-71.1081
236,368.75,-59.5867,-60.926
237,370.313,-57.1454,-60.3136
238,371.875,-61.5012,-55.9784
239,373.438,-60.3897,-70.1482
240,375,-55.9125,-59.6797
241,376.563,-58.6953,-61.0774
242,378.125,-55.082,-66.6723
243,379.688,-50.3581,-68.4931
244,381.25,-54.4222,-65.7403
245,382.813,-42.9075,-63.3751
246,384.375,-44.5996,-59.0546
247,385.938,-54.6018,-57.4659
248,387.5,-56.8994,-58.9937
249,389.063,-51.6905,-55.6683
250,390.625,-51.6143,-63.8153
251,392.188,-49.7609,-67.1105
252,393.75,-59.7742,-67.6356
253,395.313,-49.451,-60.1029
254,396.875,-31.7107,-57.0152
255,398.438,-31.871,-56.5668
